#
SAMPLE_NAME = PYX110
#
SAMPLE_TYPE = regolith
#
SAMPLE_NATURE = bronzite
#
SAMPLE_DESCRIPTION = locality unknown; En86.3Fs13.2Wo0.5
#
SAMPLE_MINERALOGY = needs to be collected
#
SAMPLE_COMMENT = <45 45-90
#
SPEC_LASER_WL = 531.98
#
SPEC_LASER_PW = 50.0
#
SPEC_LASER_SP = 1.0
#
SPEC_VIEWED_SP = 0.085
#
SPEC_RESOLUTION = 4.0
#
SPEC_XUNIT = shift
#
SPEC_YUNIT = counts
#
SPEC_INTEG_TIME = 10.0
#
SPEC_NB_AVG = 30
#
SPEC_LIN_CORR = Yes
#
SPEC_DARK_COMP = Yes
#
SPEC_DARK_SUBT = Yes
#
SPEC_CONTSUB = No
#
SPEC_SPECTROMETER = BWTek iRaman; BWS415-532S; Cal2
#
SPEC_COMMENT = CCD temperature (degC): 14; Fiber optic cable: "BAC102; 105 micron core for excitation, 200 micron core for collection "; Notch filter: OD6; Microscope Used: No ; Boxcar/zero fill: nil; Basename (C-TAPE) 210212_003_532_PYX110_spot3.txtr.
#
SPEC_SAMPINT_BEG = 2.85
SPEC_SAMPINT_END = 1.45
#
SPEC_AQDATE = 2021-02-12
#
#
DATA
  168.930000   12696.187000
  171.780000   12809.853700
  174.630000   12894.187000
  177.480000   13049.353700
  180.330000   13168.620400
  183.180000   13194.353700
  186.030000   13325.787000
  188.870000   13381.953700
  191.720000   13453.520400
  194.560000   13312.953700
  197.410000   13383.520400
  200.250000   13434.087000
  203.090000   13489.987000
  205.930000   13662.620400
  208.770000   13707.653700
  211.610000   13824.720400
  214.440000   14082.453700
  217.280000   14132.553700
  220.120000   14167.987000
  222.950000   14432.720400
  225.780000   14544.520400
  228.610000   14779.220400
  231.450000   15168.720400
  234.280000   15105.287000
  237.100000   14588.520400
  239.930000   14378.653700
  242.760000   14210.420400
  245.590000   14112.620400
  248.410000   14195.287000
  251.230000   14242.987000
  254.060000   14307.953700
  256.880000   14370.553700
  259.700000   14374.120400
  262.520000   14566.187000
  265.340000   14490.687000
  268.160000   14665.087000
  270.970000   14720.353700
  273.790000   14818.420400
  276.600000   15035.220400
  279.420000   14890.320400
  282.230000   15003.587000
  285.040000   15153.187000
  287.850000   15353.920400
  290.660000   15315.387000
  293.470000   15461.887000
  296.280000   15556.887000
  299.080000   15734.753700
  301.890000   15770.953700
  304.690000   16004.487000
  307.500000   16199.687000
  310.300000   16386.620400
  313.100000   16565.820400
  315.900000   16904.153700
  318.700000   17334.687000
  321.500000   17288.620400
  324.300000   17818.553700
  327.090000   18220.120400
  329.890000   18670.087000
  332.680000   19392.020400
  335.480000   19888.153700
  338.270000   19623.087000
  341.060000   18731.787000
  343.850000   17976.653700
  346.640000   17448.353700
  349.430000   17190.787000
  352.210000   17105.153700
  355.000000   17118.053700
  357.790000   16915.387000
  360.570000   17082.953700
  363.350000   16952.253700
  366.140000   17173.320400
  368.920000   17314.053700
  371.700000   17422.853700
  374.480000   17666.787000
  377.260000   17768.220400
  380.030000   17950.387000
  382.810000   17943.853700
  385.580000   17919.087000
  388.360000   18330.353700
  391.130000   18358.653700
  393.900000   18660.053700
  396.670000   18752.520400
  399.440000   18634.020400
  402.210000   18469.220400
  404.980000   18278.953700
  407.750000   18378.587000
  410.520000   18178.220400
  413.280000   18081.353700
  416.050000   17939.787000
  418.810000   18023.120400
  421.570000   17816.453700
  424.330000   17686.120400
  427.090000   17667.753700
  429.850000   17773.020400
  432.610000   17796.553700
  435.370000   17872.053700
  438.120000   17747.053700
  440.880000   17793.987000
  443.630000   17747.787000
  446.390000   17558.120400
  449.140000   17891.487000
  451.890000   17870.920400
  454.640000   17997.453700
  457.390000   17820.520400
  460.140000   17853.187000
  462.880000   17963.520400
  465.630000   18105.087000
  468.380000   18059.353700
  471.120000   18202.853700
  473.860000   18122.587000
  476.610000   18298.053700
  479.350000   18252.620400
  482.090000   18379.353700
  484.830000   18403.120400
  487.560000   18450.253700
  490.300000   18467.187000
  493.040000   18599.853700
  495.770000   18629.187000
  498.510000   18633.053700
  501.240000   18758.387000
  503.970000   18819.320400
  506.710000   18820.487000
  509.440000   19099.253700
  512.170000   19017.587000
  514.890000   19122.453700
  517.620000   19289.887000
  520.350000   19308.187000
  523.070000   19248.620400
  525.800000   19247.320400
  528.520000   19308.087000
  531.240000   19274.487000
  533.970000   19452.220400
  536.690000   19585.753700
  539.410000   19606.953700
  542.120000   19543.953700
  544.840000   19649.153700
  547.560000   19521.987000
  550.270000   19505.920400
  552.990000   19419.287000
  555.700000   19531.820400
  558.420000   19430.753700
  561.130000   19590.220400
  563.840000   19756.353700
  566.550000   19815.187000
  569.260000   20081.887000
  571.960000   20086.453700
  574.670000   20103.487000
  577.380000   20007.487000
  580.080000   20016.553700
  582.790000   20057.353700
  585.490000   20105.920400
  588.190000   20154.587000
  590.890000   20282.920400
  593.590000   20084.853700
  596.290000   20179.587000
  598.990000   20211.653700
  601.690000   20251.787000
  604.380000   20283.287000
  607.080000   20367.887000
  609.770000   20245.153700
  612.460000   20428.653700
  615.160000   20343.887000
  617.850000   20491.587000
  620.540000   20538.287000
  623.230000   20566.953700
  625.920000   20706.187000
  628.600000   20695.820400
  631.290000   20743.253700
  633.980000   20890.320400
  636.660000   20949.020400
  639.340000   21149.453700
  642.030000   21424.487000
  644.710000   21752.787000
  647.390000   22086.120400
  650.070000   22619.120400
  652.750000   23225.387000
  655.420000   23854.053700
  658.100000   24495.053700
  660.780000   24659.820400
  663.450000   24302.320400
  666.120000   23784.753700
  668.800000   24023.320400
  671.470000   24229.720400
  674.140000   24853.520400
  676.810000   25515.087000
  679.480000   25932.987000
  682.150000   25505.253700
  684.810000   24722.753700
  687.480000   23423.553700
  690.150000   22967.487000
  692.810000   22268.087000
  695.470000   22052.587000
  698.130000   21862.153700
  700.800000   21916.020400
  703.460000   21882.353700
  706.120000   21795.887000
  708.770000   21760.687000
  711.430000   21774.853700
  714.090000   21837.953700
  716.740000   21770.353700
  719.400000   21918.787000
  722.050000   21880.287000
  724.700000   21867.120400
  727.360000   22061.453700
  730.010000   21910.787000
  732.660000   22140.020400
  735.310000   22077.087000
  737.950000   22167.187000
  740.600000   22109.853700
  743.250000   22089.120400
  745.890000   22162.887000
  748.530000   22145.687000
  751.180000   22157.820400
  753.820000   22325.387000
  756.460000   22218.187000
  759.100000   22133.153700
  761.740000   22196.520400
  764.380000   22266.720400
  767.020000   22265.220400
  769.650000   22282.687000
  772.290000   22246.353700
  774.920000   22354.187000
  777.560000   22382.553700
  780.190000   22390.687000
  782.820000   22534.320400
  785.450000   22477.820400
  788.080000   22609.853700
  790.710000   22595.653700
  793.340000   22594.720400
  795.960000   22793.820400
  798.590000   22724.587000
  801.210000   22899.153700
  803.840000   22857.420400
  806.460000   22963.953700
  809.080000   22809.387000
  811.710000   22918.320400
  814.330000   22973.753700
  816.940000   22922.953700
  819.560000   23183.087000
  822.180000   22980.653700
  824.800000   23166.920400
  827.410000   23197.587000
  830.030000   23156.553700
  832.640000   23290.653700
  835.250000   23316.587000
  837.870000   23265.687000
  840.480000   23370.053700
  843.090000   23268.920400
  845.690000   23396.953700
  848.300000   23396.787000
  850.910000   23448.220400
  853.520000   23573.487000
  856.120000   23730.887000
  858.730000   23752.720400
  861.330000   23730.387000
  863.930000   23778.287000
  866.530000   23577.887000
  869.130000   23603.987000
  871.730000   23867.353700
  874.330000   23637.853700
  876.930000   23739.687000
  879.530000   23716.853700
  882.120000   23825.153700
  884.720000   23885.587000
  887.310000   23919.453700
  889.900000   23972.320400
  892.490000   23842.820400
  895.090000   23968.953700
  897.680000   24069.020400
  900.260000   24008.387000
  902.850000   24127.987000
  905.440000   24260.053700
  908.030000   24320.987000
  910.610000   24289.987000
  913.200000   24417.253700
  915.780000   24469.353700
  918.360000   24361.887000
  920.940000   24476.720400
  923.530000   25076.953700
  926.110000   24956.220400
  928.680000   25028.053700
  931.260000   25088.553700
  933.840000   25185.387000
  936.420000   25039.153700
  938.990000   25218.620400
  941.570000   25035.687000
  944.140000   24830.087000
  946.710000   24885.453700
  949.280000   24655.020400
  951.850000   24581.887000
  954.420000   24736.987000
  956.990000   24690.687000
  959.560000   24602.553700
  962.130000   24649.287000
  964.690000   24632.087000
  967.260000   24657.953700
  969.820000   24666.687000
  972.380000   24607.087000
  974.950000   24918.553700
  977.510000   24942.087000
  980.070000   25071.053700
  982.630000   24965.220400
  985.190000   25214.820400
  987.740000   25257.553700
  990.300000   25790.120400
  992.860000   26382.020400
  995.410000   26901.720400
  997.960000   28113.587000
 1000.520000   29362.520400
 1003.070000   30622.053700
 1005.620000   32149.053700
 1008.170000   32687.520400
 1010.720000   31847.487000
 1013.270000   30517.520400
 1015.820000   29517.320400
 1018.360000   29222.787000
 1020.910000   29015.020400
 1023.450000   28652.053700
 1026.000000   28404.853700
 1028.540000   28218.787000
 1031.080000   27432.753700
 1033.620000   27406.887000
 1036.160000   26939.887000
 1038.700000   26322.387000
 1041.240000   26240.687000
 1043.780000   25999.320400
 1046.310000   25659.987000
 1048.850000   25506.520400
 1051.380000   25615.720400
 1053.920000   25373.020400
 1056.450000   25382.487000
 1058.980000   25280.453700
 1061.510000   25387.553700
 1064.040000   25257.853700
 1066.570000   25065.453700
 1069.100000   25188.887000
 1071.630000   25119.253700
 1074.150000   25104.853700
 1076.680000   25302.687000
 1079.200000   25163.487000
 1081.730000   25139.887000
 1084.250000   25198.720400
 1086.770000   25200.020400
 1089.290000   25304.420400
 1091.810000   25310.720400
 1094.330000   25338.320400
 1096.850000   25261.687000
 1099.370000   25361.587000
 1101.880000   25141.720400
 1104.400000   25556.487000
 1106.910000   25280.053700
 1109.430000   25338.387000
 1111.940000   25302.787000
 1114.450000   25259.053700
 1116.960000   25150.953700
 1119.470000   25220.720400
 1121.980000   25327.453700
 1124.490000   25195.353700
 1127.000000   25373.253700
 1129.510000   25246.187000
 1132.010000   25134.687000
 1134.520000   25247.420400
 1137.020000   25296.420400
 1139.520000   25273.587000
 1142.020000   25348.387000
 1144.520000   25203.720400
 1147.020000   25167.853700
 1149.520000   25343.653700
 1152.020000   25283.953700
 1154.520000   25163.587000
 1157.020000   25201.387000
 1159.510000   25152.653700
 1162.010000   25204.187000
 1164.500000   25155.120400
 1166.990000   25199.553700
 1169.480000   25221.787000
 1171.980000   25152.253700
 1174.470000   25261.120400
 1176.960000   25156.987000
 1179.440000   25170.720400
 1181.930000   25101.787000
 1184.420000   25200.720400
 1186.900000   25156.020400
 1189.390000   25301.553700
 1191.870000   25416.053700
 1194.350000   25230.453700
 1196.840000   25195.220400
 1199.320000   25213.920400
 1201.800000   25382.387000
 1204.280000   25277.020400
 1206.760000   25277.120400
 1209.230000   25465.553700
 1211.710000   25412.320400
 1214.190000   25420.420400
 1216.660000   25326.420400
 1219.140000   25492.953700
 1221.610000   25534.153700
 1224.080000   25598.653700
 1226.550000   25578.487000
 1229.020000   25571.487000
 1231.490000   25601.953700
 1233.960000   25589.153700
 1236.430000   25718.720400
 1238.900000   25803.953700
 1241.360000   25691.187000
 1243.830000   25767.953700
 1246.290000   25739.120400
 1248.750000   25731.787000
 1251.220000   25817.153700
 1253.680000   25769.753700
 1256.140000   25698.187000
 1258.600000   25908.553700
 1261.060000   25826.920400
 1263.520000   25770.453700
 1265.970000   25973.287000
 1268.430000   25922.053700
 1270.880000   25840.020400
 1273.340000   25831.587000
 1275.790000   25857.120400
 1278.240000   25799.553700
 1280.700000   25863.387000
 1283.150000   25785.153700
 1285.600000   25881.353700
 1288.050000   25675.720400
 1290.490000   25909.487000
 1292.940000   25845.953700
 1295.390000   25820.920400
 1297.830000   25910.220400
 1300.280000   25811.387000
 1302.720000   25861.053700
 1305.170000   25926.820400
 1307.610000   25765.587000
 1310.050000   25771.453700
 1312.490000   25862.920400
 1314.930000   25702.453700
 1317.370000   25875.687000
 1319.800000   25816.453700
 1322.240000   25773.020400
 1324.680000   25790.020400
 1327.110000   25944.620400
 1329.550000   25771.053700
 1331.980000   25905.220400
 1334.410000   25843.887000
 1336.840000   25884.887000
 1339.270000   25839.620400
 1341.700000   25803.853700
 1344.130000   25583.553700
 1346.560000   25915.020400
 1348.990000   25840.187000
 1351.410000   25867.587000
 1353.840000   25808.653700
 1356.260000   25853.187000
 1358.690000   25770.587000
 1361.110000   25820.887000
 1363.530000   25856.187000
 1365.950000   25796.020400
 1368.370000   25774.520400
 1370.790000   25852.120400
 1373.210000   25896.020400
 1375.630000   25766.820400
 1378.040000   25942.253700
 1380.460000   25681.187000
 1382.880000   25639.853700
 1385.290000   25808.253700
 1387.700000   25864.153700
 1390.110000   25706.153700
 1392.530000   25733.287000
 1394.940000   25828.087000
 1397.350000   25699.753700
 1399.750000   25808.287000
 1402.160000   25817.687000
 1404.570000   25870.787000
 1406.980000   25937.987000
 1409.380000   26037.253700
 1411.790000   25948.287000
 1414.190000   26008.920400
 1416.590000   25965.087000
 1418.990000   25890.053700
 1421.390000   26082.887000
 1423.790000   26050.687000
 1426.190000   26094.453700
 1428.590000   26017.853700
 1430.990000   26215.453700
 1433.390000   26176.053700
 1435.780000   26178.753700
 1438.180000   26065.920400
 1440.570000   26259.720400
 1442.960000   26337.220400
 1445.360000   26303.287000
 1447.750000   26272.153700
 1450.140000   26193.720400
 1452.530000   26295.753700
 1454.920000   26274.887000
 1457.300000   26337.153700
 1459.690000   26365.320400
 1462.080000   26371.753700
 1464.460000   26336.653700
 1466.850000   26349.920400
 1469.230000   26292.153700
 1471.610000   26418.453700
 1474.000000   26374.320400
 1476.380000   26302.853700
 1478.760000   26411.587000
 1481.140000   26388.853700
 1483.520000   26307.420400
 1485.890000   26290.720400
 1488.270000   26373.153700
 1490.650000   26338.420400
 1493.020000   26431.920400
 1495.400000   26145.820400
 1497.770000   26327.887000
 1500.140000   26240.220400
 1502.510000   26381.020400
 1504.880000   26287.053700
 1507.250000   26264.387000
 1509.620000   26345.053700
 1511.990000   26210.087000
 1514.360000   26270.687000
 1516.720000   26272.887000
 1519.090000   26412.420400
 1521.450000   26421.353700
 1523.820000   26292.953700
 1526.180000   26205.520400
 1528.540000   26234.353700
 1530.910000   26340.387000
 1533.270000   26412.687000
 1535.630000   26366.120400
 1537.980000   26336.153700
 1540.340000   26260.487000
 1542.700000   26336.720400
 1545.060000   26358.653700
 1547.410000   26313.587000
 1549.770000   26358.620400
 1552.120000   26372.587000
 1554.470000   26451.220400
 1556.820000   26221.153700
 1559.180000   26417.187000
 1561.530000   26422.487000
 1563.870000   26343.720400
 1566.220000   26329.353700
 1568.570000   26419.887000
 1570.920000   26491.953700
 1573.260000   26415.820400
 1575.610000   26458.553700
 1577.950000   26299.887000
 1580.300000   26518.020400
 1582.640000   26416.987000
 1584.980000   26370.187000
 1587.320000   26273.820400
 1589.660000   26471.987000
 1592.000000   26524.187000
 1594.340000   26598.720400
 1596.680000   26520.987000
 1599.010000   26455.820400
 1601.350000   26538.853700
 1603.690000   26474.020400
 1606.020000   26589.387000
 1608.350000   26584.587000
 1610.690000   26740.920400
 1613.020000   26517.987000
 1615.350000   26442.587000
 1617.680000   26532.320400
 1620.010000   26600.553700
 1622.340000   26422.387000
 1624.660000   26469.487000
 1626.990000   26500.287000
 1629.320000   26661.887000
 1631.640000   26741.787000
 1633.960000   26438.853700
 1636.290000   26629.320400
 1638.610000   26556.020400
 1640.930000   26663.453700
 1643.250000   26661.553700
 1645.570000   26659.353700
 1647.890000   26785.920400
 1650.210000   26763.753700
 1652.530000   26728.953700
 1654.840000   26540.053700
 1657.160000   27189.053700
 1659.470000   26665.453700
 1661.790000   26780.653700
 1664.100000   26728.053700
 1666.410000   26744.453700
 1668.720000   26732.653700
 1671.040000   26696.353700
 1673.350000   26663.720400
 1675.650000   26783.287000
 1677.960000   26741.653700
 1680.270000   26695.753700
 1682.580000   26743.420400
 1684.880000   26688.887000
 1687.190000   26715.153700
 1689.490000   26717.887000
 1691.790000   26857.187000
 1694.100000   26666.887000
 1696.400000   26813.187000
 1698.700000   26849.420400
 1701.000000   26746.953700
 1703.300000   26702.387000
 1705.600000   26678.520400
 1707.890000   26668.487000
 1710.190000   26674.753700
 1712.480000   26753.153700
 1714.780000   26693.453700
 1717.070000   26727.953700
 1719.370000   26686.820400
 1721.660000   26723.653700
 1723.950000   26824.220400
 1726.240000   26890.320400
 1728.530000   26865.320400
 1730.820000   26702.953700
 1733.110000   26939.820400
 1735.400000   26858.487000
 1737.680000   26814.320400
 1739.970000   26936.820400
 1742.250000   26813.587000
 1744.540000   26845.620400
 1746.820000   27030.653700
 1749.100000   26948.287000
 1751.380000   27078.720400
 1753.670000   27017.620400
 1755.950000   27080.887000
 1758.220000   27073.920400
 1760.500000   27113.720400
 1762.780000   27155.420400
 1765.060000   27112.787000
 1767.330000   27184.753700
 1769.610000   27138.087000
 1771.880000   27014.987000
 1774.160000   27236.220400
 1776.430000   27074.753700
 1778.700000   27173.153700
 1780.970000   27242.120400
 1783.240000   27002.220400
 1785.510000   27215.220400
 1787.780000   27061.587000
 1790.050000   27134.087000
 1792.310000   27289.853700
 1794.580000   27250.653700
 1796.840000   27161.153700
 1799.110000   27298.453700
 1801.370000   27227.353700
 1803.630000   27206.253700
 1805.900000   27352.153700
 1808.160000   27213.753700
 1810.420000   27376.987000
 1812.680000   27239.687000
 1814.940000   27240.987000
 1817.190000   27154.720400
 1819.450000   27300.853700
 1821.710000   27260.387000
 1823.960000   27007.487000
 1826.220000   27234.387000
 1828.470000   27069.453700
 1830.720000   27019.820400
 1832.970000   27169.253700
 1835.230000   27146.787000
 1837.480000   27103.887000
 1839.730000   27080.053700
 1841.970000   27027.153700
 1844.220000   27115.287000
 1846.470000   27057.753700
 1848.720000   26952.287000
 1850.960000   27051.320400
 1853.210000   27135.153700
 1855.450000   27135.053700
 1857.690000   27027.320400
 1859.940000   27037.653700
 1862.180000   26943.120400
 1864.420000   26934.520400
 1866.660000   27057.820400
 1868.900000   27008.620400
 1871.130000   27101.887000
 1873.370000   27075.553700
 1875.610000   26934.253700
 1877.840000   27002.520400
 1880.080000   26947.887000
 1882.310000   26901.220400
 1884.550000   26837.453700
 1886.780000   26922.153700
 1889.010000   26956.387000
 1891.240000   26941.720400
 1893.470000   26843.453700
 1895.700000   27061.320400
 1897.930000   26930.053700
 1900.160000   26988.387000
 1902.380000   26878.120400
 1904.610000   26875.687000
 1906.840000   26926.953700
 1909.060000   26872.220400
 1911.280000   26930.687000
 1913.510000   26760.220400
 1915.730000   26843.187000
 1917.950000   26844.387000
 1920.170000   27019.520400
 1922.390000   26900.687000
 1924.610000   26955.987000
 1926.830000   26799.953700
 1929.040000   26769.853700
 1931.260000   26844.320400
 1933.480000   26885.187000
 1935.690000   26733.520400
 1937.910000   27000.420400
 1940.120000   26875.487000
 1942.330000   26818.320400
 1944.540000   26802.987000
 1946.750000   26843.087000
 1948.960000   26818.720400
 1951.170000   26636.653700
 1953.380000   26850.220400
 1955.590000   26858.087000
 1957.800000   26790.353700
 1960.000000   26863.287000
 1962.210000   26823.187000
 1964.410000   26860.420400
 1966.610000   26863.220400
 1968.820000   26744.120400
 1971.020000   26937.053700
 1973.220000   26721.053700
 1975.420000   26897.353700
 1977.620000   26752.220400
 1979.820000   26748.353700
 1982.020000   26764.653700
 1984.210000   26825.453700
 1986.410000   26757.153700
 1988.610000   26604.820400
 1990.800000   26733.320400
 1993.000000   26691.853700
 1995.190000   26762.520400
 1997.380000   26698.320400
 1999.570000   26583.087000
 2001.760000   26592.087000
 2003.950000   26685.287000
 2006.140000   26652.220400
 2008.330000   26620.253700
 2010.520000   26738.320400
 2012.710000   26745.953700
 2014.890000   26698.353700
 2017.080000   26469.820400
 2019.260000   26676.287000
 2021.450000   26580.320400
 2023.630000   26607.320400
 2025.810000   26687.287000
 2027.990000   26595.787000
 2030.170000   26693.820400
 2032.350000   26635.753700
 2034.530000   26515.220400
 2036.710000   26658.253700
 2038.890000   26610.387000
 2041.060000   26643.987000
 2043.240000   26659.620400
 2045.410000   26578.287000
 2047.590000   26705.487000
 2049.760000   26750.120400
 2051.940000   26683.953700
 2054.110000   26697.720400
 2056.280000   26726.887000
 2058.450000   26898.687000
 2060.620000   26695.820400
 2062.790000   26575.887000
 2064.950000   26788.153700
 2067.120000   26739.120400
 2069.290000   26750.053700
 2071.450000   26746.887000
 2073.620000   26670.387000
 2075.780000   26753.420400
 2077.950000   26832.120400
 2080.110000   26723.387000
 2082.270000   26855.587000
 2084.430000   26582.653700
 2086.590000   26694.820400
 2088.750000   26810.987000
 2090.910000   26732.953700
 2093.070000   26810.320400
 2095.220000   26727.287000
 2097.380000   26827.887000
 2099.530000   26688.220400
 2101.690000   26714.187000
 2103.840000   26794.887000
 2106.000000   26749.220400
 2108.150000   26569.953700
 2110.300000   26678.753700
 2112.450000   26455.387000
 2114.600000   26624.087000
 2116.750000   26599.920400
 2118.900000   26662.153700
 2121.040000   26551.620400
 2123.190000   26603.653700
 2125.340000   26345.687000
 2127.480000   26694.420400
 2129.630000   26616.220400
 2131.770000   26581.120400
 2133.910000   26497.820400
 2136.060000   26315.420400
 2138.200000   26443.853700
 2140.340000   26319.253700
 2142.480000   26485.553700
 2144.620000   26366.687000
 2146.750000   26300.287000
 2148.890000   26648.120400
 2151.030000   26266.087000
 2153.160000   26390.020400
 2155.300000   26349.587000
 2157.430000   26298.153700
 2159.570000   26365.253700
 2161.700000   26134.953700
 2163.830000   26240.653700
 2165.960000   26179.953700
 2168.090000   26263.553700
 2170.220000   26085.087000
 2172.350000   26204.387000
 2174.480000   26003.987000
 2176.610000   26083.820400
 2178.730000   26039.020400
 2180.860000   25994.487000
 2182.990000   25946.287000
 2185.110000   26230.353700
 2187.230000   25784.187000
 2189.360000   25969.020400
 2191.480000   26009.153700
 2193.600000   25897.920400
 2195.720000   25736.787000
 2197.840000   25828.753700
 2199.960000   25749.087000
 2202.080000   25882.053700
 2204.190000   25734.020400
 2206.310000   25735.720400
 2208.430000   25574.887000
 2210.540000   25675.553700
 2212.660000   25479.020400
 2214.770000   25547.053700
 2216.880000   25661.953700
 2218.990000   25448.620400
 2221.100000   25346.320400
 2223.220000   25317.420400
 2225.320000   25278.187000
 2227.430000   25228.587000
 2229.540000   25179.553700
 2231.650000   25276.587000
 2233.760000   25216.987000
 2235.860000   25259.387000
 2237.970000   25176.420400
 2240.070000   25239.487000
 2242.170000   25095.353700
 2244.280000   25062.353700
 2246.380000   25178.087000
 2248.480000   25065.453700
 2250.580000   25123.087000
 2252.680000   25000.387000
 2254.780000   25002.020400
 2256.880000   25091.720400
 2258.970000   25062.387000
 2261.070000   24999.820400
 2263.170000   24907.153700
 2265.260000   24870.353700
 2267.360000   24953.787000
 2269.450000   24819.820400
 2271.540000   24841.187000
 2273.640000   24791.620400
 2275.730000   24793.520400
 2277.820000   24873.253700
 2279.910000   24937.387000
 2282.000000   24927.853700
 2284.080000   24789.420400
 2286.170000   24634.653700
 2288.260000   24689.087000
 2290.340000   24790.087000
 2292.430000   24610.553700
 2294.510000   24639.953700
 2296.600000   24520.420400
 2298.680000   24654.087000
 2300.760000   24659.653700
 2302.840000   24644.087000
 2304.920000   24538.353700
 2307.000000   24533.387000
 2309.080000   24443.487000
 2311.160000   24488.653700
 2313.240000   24406.387000
 2315.320000   24368.320400
 2317.390000   24298.953700
 2319.470000   24414.087000
 2321.540000   24252.687000
 2323.620000   24208.887000
 2325.690000   24383.987000
 2327.760000   24428.853700
 2329.830000   24216.353700
 2331.900000   24228.553700
 2333.970000   24234.753700
 2336.040000   24264.420400
 2338.110000   24306.120400
 2340.180000   24139.753700
 2342.250000   24007.253700
 2344.310000   24126.120400
 2346.380000   23995.320400
 2348.440000   23996.087000
 2350.510000   24086.053700
 2352.570000   23912.953700
 2354.630000   23863.853700
 2356.700000   23977.887000
 2358.760000   23744.653700
 2360.820000   23806.753700
 2362.880000   23781.253700
 2364.940000   23745.753700
 2366.990000   23741.953700
 2369.050000   23741.853700
 2371.110000   23759.820400
 2373.160000   23819.853700
 2375.220000   23611.053700
 2377.270000   23716.120400
 2379.330000   23709.287000
 2381.380000   23562.587000
 2383.430000   23752.853700
 2385.480000   23597.953700
 2387.530000   23652.220400
 2389.580000   23686.587000
 2391.630000   23471.087000
 2393.680000   23554.787000
 2395.730000   23573.520400
 2397.770000   23553.453700
 2399.820000   23565.487000
 2401.870000   23405.753700
 2403.910000   23522.287000
 2405.950000   23340.187000
 2408.000000   23268.920400
 2410.040000   23227.620400
 2412.080000   23209.820400
 2414.120000   23190.620400
 2416.160000   23188.687000
 2418.200000   23198.020400
 2420.240000   23170.487000
 2422.280000   23142.553700
 2424.310000   22909.953700
 2426.350000   22914.553700
 2428.390000   22885.487000
 2430.420000   22942.620400
 2432.460000   23068.620400
 2434.490000   22839.853700
 2436.520000   22871.920400
 2438.550000   22803.153700
 2440.590000   22903.620400
 2442.620000   22833.753700
 2444.650000   22567.120400
 2446.670000   22726.287000
 2448.700000   22581.720400
 2450.730000   22770.653700
 2452.760000   22586.853700
 2454.780000   22703.920400
 2456.810000   22528.053700
 2458.830000   22597.287000
 2460.860000   22511.453700
 2462.880000   22525.553700
 2464.900000   22467.320400
 2466.920000   22359.653700
 2468.940000   22545.153700
 2470.960000   22472.453700
 2472.980000   22307.820400
 2475.000000   22373.153700
 2477.020000   22458.820400
 2479.040000   22492.553700
 2481.050000   22270.587000
 2483.070000   22288.920400
 2485.080000   22372.687000
 2487.100000   22235.720400
 2489.110000   22242.687000
 2491.120000   22210.420400
 2493.140000   22180.320400
 2495.150000   22171.220400
 2497.160000   22153.253700
 2499.170000   22131.387000
 2501.180000   22117.353700
 2503.190000   22083.787000
 2505.190000   22034.453700
 2507.200000   22093.020400
 2509.210000   21899.287000
 2511.210000   21962.920400
 2513.220000   21943.620400
 2515.220000   21976.253700
 2517.220000   21886.320400
 2519.230000   21868.387000
 2521.230000   21930.353700
 2523.230000   21725.687000
 2525.230000   21732.520400
 2527.230000   21692.253700
 2529.230000   21767.920400
 2531.220000   21712.920400
 2533.220000   21536.353700
 2535.220000   21677.120400
 2537.210000   21502.820400
 2539.210000   21460.353700
 2541.200000   21545.153700
 2543.200000   21472.453700
 2545.190000   21339.620400
 2547.180000   21341.520400
 2549.170000   21308.953700
 2551.170000   21355.920400
 2553.160000   21309.820400
 2555.140000   21286.853700
 2557.130000   21223.687000
 2559.120000   21143.253700
 2561.110000   21206.087000
 2563.090000   21092.420400
 2565.080000   21038.287000
 2567.070000   21124.587000
 2569.050000   21052.653700
 2571.030000   21055.287000
 2573.020000   20966.187000
 2575.000000   20954.520400
 2576.980000   21071.320400
 2578.960000   20897.687000
 2580.940000   20849.120400
 2582.920000   20892.720400
 2584.900000   20953.820400
 2586.870000   20919.087000
 2588.850000   20891.120400
 2590.830000   20854.087000
 2592.800000   20782.320400
 2594.780000   20770.053700
 2596.750000   20793.853700
 2598.730000   20738.120400
 2600.700000   20761.453700
 2602.670000   20740.753700
 2604.640000   20745.953700
 2606.610000   20750.420400
 2608.580000   20704.220400
 2610.550000   20634.520400
 2612.520000   20731.487000
 2614.490000   20596.787000
 2616.450000   20615.353700
 2618.420000   20622.053700
 2620.390000   20609.687000
 2622.350000   20548.053700
 2624.310000   20467.020400
 2626.280000   20563.553700
 2628.240000   20475.020400
 2630.200000   20342.253700
 2632.160000   20449.653700
 2634.120000   20256.053700
 2636.080000   20293.553700
 2638.040000   20297.653700
 2640.000000   20284.053700
 2641.960000   20153.887000
 2643.910000   20271.353700
 2645.870000   20127.653700
 2647.830000   20106.953700
 2649.780000   20040.620400
 2651.730000   20122.687000
 2653.690000   20150.887000
 2655.640000   19970.253700
 2657.590000   19942.053700
 2659.540000   19877.120400
 2661.490000   19863.687000
 2663.440000   19968.987000
 2665.390000   19822.120400
 2667.340000   19824.620400
 2669.290000   19754.020400
 2671.230000   19659.120400
 2673.180000   19860.653700
 2675.130000   19617.087000
 2677.070000   19781.553700
 2679.010000   19673.920400
 2680.960000   19673.920400
 2682.900000   19559.720400
 2684.840000   19564.087000
 2686.780000   19505.453700
 2688.720000   19570.353700
 2690.660000   19568.153700
 2692.600000   19405.453700
 2694.540000   19478.420400
 2696.480000   19447.453700
 2698.410000   19445.920400
 2700.350000   19376.653700
 2702.290000   19311.753700
 2704.220000   19310.853700
 2706.150000   19359.853700
 2708.090000   19342.020400
 2710.020000   19351.287000
 2711.950000   19222.387000
 2713.880000   19266.120400
 2715.810000   19148.320400
 2717.740000   19127.553700
 2719.670000   19070.753700
 2721.600000   19063.720400
 2723.530000   19091.487000
 2725.450000   19097.153700
 2727.380000   18960.253700
 2729.310000   19054.420400
 2731.230000   18965.653700
 2733.150000   18923.087000
 2735.080000   18977.087000
 2737.000000   18803.953700
 2738.920000   18859.987000
 2740.840000   18848.753700
 2742.760000   18751.087000
 2744.680000   18688.687000
 2746.600000   18556.953700
 2748.520000   18763.920400
 2750.440000   18711.153700
 2752.360000   18629.220400
 2754.270000   18589.087000
 2756.190000   18517.153700
 2758.100000   18588.687000
 2760.020000   18503.753700
 2761.930000   18519.620400
 2763.840000   18467.720400
 2765.760000   18428.553700
 2767.670000   18468.553700
 2769.580000   18361.053700
 2771.490000   18397.387000
 2773.400000   18325.420400
 2775.310000   18456.753700
 2777.210000   18342.420400
 2779.120000   18299.487000
 2781.030000   18265.553700
 2782.930000   18227.887000
 2784.840000   18274.653700
 2786.740000   18223.987000
 2788.650000   18177.853700
 2790.550000   18191.187000
 2792.450000   18063.087000
 2794.350000   18161.153700
 2796.250000   18149.853700
 2798.150000   18191.087000
 2800.050000   18024.387000
 2801.950000   18196.787000
 2803.850000   18041.987000
 2805.750000   18006.820400
 2807.640000   18066.520400
 2809.540000   18071.920400
 2811.430000   18058.153700
 2813.330000   17960.120400
 2815.220000   18128.120400
 2817.120000   17964.153700
 2819.010000   18038.953700
 2820.900000   17926.653700
 2822.790000   17973.653700
 2824.680000   17900.053700
 2826.570000   17935.287000
 2828.460000   17949.153700
 2830.350000   17893.620400
 2832.240000   17966.453700
 2834.120000   17890.153700
 2836.010000   17856.187000
 2837.890000   17893.753700
 2839.780000   17764.353700
 2841.660000   17879.653700
 2843.550000   17752.087000
 2845.430000   17751.320400
 2847.310000   17711.753700
 2849.190000   17694.020400
 2851.070000   17845.720400
 2852.950000   17653.953700
 2854.830000   17585.053700
 2856.710000   17547.653700
 2858.590000   17504.020400
 2860.470000   17452.287000
 2862.340000   17469.553700
 2864.220000   17434.687000
 2866.090000   17418.020400
 2867.970000   17473.253700
 2869.840000   17403.787000
 2871.710000   17340.687000
 2873.590000   17383.787000
 2875.460000   17323.953700
 2877.330000   17381.187000
 2879.200000   17230.953700
 2881.070000   17261.253700
 2882.940000   17260.687000
 2884.810000   17222.587000
 2886.670000   17132.920400
 2888.540000   17194.620400
 2890.410000   17091.653700
 2892.270000   17116.020400
 2894.140000   17087.353700
 2896.000000   17003.553700
 2897.860000   16959.987000
 2899.730000   17120.587000
 2901.590000   17054.120400
 2903.450000   16918.887000
 2905.310000   16892.320400
 2907.170000   16986.187000
 2909.030000   16883.087000
 2910.890000   16852.153700
 2912.750000   16865.120400
 2914.600000   16785.620400
 2916.460000   16803.387000
 2918.320000   16726.687000
 2920.170000   16648.387000
 2922.030000   16666.187000
 2923.880000   16664.520400
 2925.730000   16675.953700
 2927.590000   16591.920400
 2929.440000   16601.253700
 2931.290000   16564.120400
 2933.140000   16485.053700
 2934.990000   16630.620400
 2936.840000   16441.420400
 2938.690000   16581.220400
 2940.530000   16551.420400
 2942.380000   16352.553700
 2944.230000   16385.753700
 2946.070000   16552.587000
 2947.920000   16394.720400
 2949.760000   16359.987000
 2951.600000   16259.453700
 2953.450000   16268.653700
 2955.290000   16271.320400
 2957.130000   16286.720400
 2958.970000   16229.953700
 2960.810000   16191.420400
 2962.650000   16226.253700
 2964.490000   16204.587000
 2966.330000   16136.620400
 2968.170000   16076.287000
 2970.000000   15966.453700
 2971.840000   16151.787000
 2973.670000   16000.587000
 2975.510000   16065.187000
 2977.340000   16031.287000
 2979.180000   16116.653700
 2981.010000   16084.453700
 2982.840000   16041.353700
 2984.670000   15984.020400
 2986.500000   15999.520400
 2988.330000   15957.587000
 2990.160000   15848.453700
 2991.990000   15940.987000
 2993.820000   15848.587000
 2995.640000   15840.687000
 2997.470000   15929.553700
 2999.300000   15849.387000
 3001.120000   15816.087000
 3002.950000   15831.653700
 3004.770000   15780.753700
 3006.590000   15670.287000
 3008.420000   15812.020400
 3010.240000   15621.187000
 3012.060000   15764.087000
 3013.880000   15611.420400
 3015.700000   15719.587000
 3017.520000   15608.387000
 3019.340000   15576.687000
 3021.150000   15556.153700
 3022.970000   15517.753700
 3024.790000   15632.320400
 3026.600000   15453.587000
 3028.420000   15617.620400
 3030.230000   15490.753700
 3032.050000   15562.620400
 3033.860000   15484.587000
 3035.670000   15396.920400
 3037.480000   15424.020400
 3039.300000   15477.920400
 3041.110000   15460.253700
 3042.920000   15349.353700
 3044.720000   15416.387000
 3046.530000   15349.187000
 3048.340000   15312.187000
 3050.150000   15343.053700
 3051.950000   15345.153700
 3053.760000   15275.853700
 3055.560000   15205.587000
 3057.370000   15179.220400
 3059.170000   15216.720400
 3060.980000   15154.853700
 3062.780000   15238.853700
 3064.580000   15009.287000
 3066.380000   15143.487000
 3068.180000   15095.620400
 3069.980000   15113.020400
 3071.780000   15016.653700
 3073.580000   15008.287000
 3075.380000   15154.920400
 3077.170000   14944.853700
 3078.970000   14941.853700
 3080.760000   14953.087000
 3082.560000   14980.787000
 3084.350000   14963.787000
 3086.150000   14835.953700
 3087.940000   14882.120400
 3089.730000   14848.353700
 3091.520000   14829.487000
 3093.320000   14895.720400
 3095.110000   14774.353700
 3096.900000   14780.553700
 3098.680000   14705.220400
 3100.470000   14854.687000
 3102.260000   14705.220400
 3104.050000   14664.653700
 3105.830000   14739.787000
 3107.620000   14701.387000
 3109.400000   14645.653700
 3111.190000   14620.853700
 3112.970000   14601.887000
 3114.760000   14574.153700
 3116.540000   14554.553700
 3118.320000   14573.653700
 3120.100000   14493.120400
 3121.880000   14496.020400
 3123.660000   14465.953700
 3125.440000   14448.453700
 3127.220000   14429.820400
 3129.000000   14348.987000
 3130.770000   14359.353700
 3132.550000   14355.387000
 3134.320000   14326.420400
 3136.100000   14382.253700
 3137.870000   14430.653700
 3139.650000   14341.387000
 3141.420000   14298.553700
 3143.190000   14313.020400
 3144.970000   14259.620400
 3146.740000   14228.120400
 3148.510000   14137.320400
 3150.280000   14152.353700
 3152.050000   14247.853700
 3153.810000   14188.353700
 3155.580000   14213.353700
 3157.350000   14152.120400
 3159.120000   14199.753700
 3160.880000   14154.653700
 3162.650000   14134.820400
 3164.410000   14076.320400
 3166.180000   14109.120400
 3167.940000   14068.653700
 3169.700000   14124.553700
 3171.460000   14032.020400
 3173.220000   14053.153700
 3174.980000   14096.153700
 3176.740000   14066.020400
 3178.500000   13999.553700
 3180.260000   14157.487000
 3182.020000   13980.953700
 3183.780000   13948.287000
 3185.530000   13924.987000
 3187.290000   14088.820400
 3189.050000   13924.720400
 3190.800000   14088.520400
 3192.550000   13966.153700
 3194.310000   13943.687000
 3196.060000   13859.753700
 3197.810000   13892.087000
 3199.560000   13893.987000
 3201.310000   13889.387000
 3203.060000   13903.620400
 3204.810000   13948.020400
 3206.560000   13888.620400
 3208.310000   13936.420400
 3210.060000   13840.420400
 3211.810000   13779.053700
 3213.550000   13852.720400
 3215.300000   13748.553700
 3217.040000   13818.287000
 3218.790000   13779.587000
 3220.530000   13739.120400
 3222.270000   13724.453700
 3224.020000   13770.987000
 3225.760000   13799.687000
 3227.500000   13654.520400
 3229.240000   13782.587000
 3230.980000   13658.353700
 3232.720000   13638.020400
 3234.460000   13701.520400
 3236.190000   13676.820400
 3237.930000   13662.187000
 3239.670000   13601.120400
 3241.400000   13588.687000
 3243.140000   13601.020400
 3244.870000   13506.020400
 3246.610000   13542.920400
 3248.340000   13487.153700
 3250.070000   13710.020400
 3251.800000   13461.387000
 3253.540000   13484.053700
 3255.270000   13506.887000
 3257.000000   13512.653700
 3258.720000   13363.720400
 3260.450000   13392.253700
 3262.180000   13481.053700
 3263.910000   13396.687000
 3265.640000   13388.587000
 3267.360000   13317.720400
 3269.090000   13310.087000
 3270.810000   13288.420400
 3272.540000   13281.420400
 3274.260000   13215.387000
 3275.980000   13285.687000
 3277.700000   13225.753700
 3279.430000   13167.653700
 3281.150000   13241.687000
 3282.870000   13184.120400
 3284.590000   13159.187000
 3286.310000   13191.687000
 3288.020000   13124.887000
 3289.740000   13147.587000
 3291.460000   13099.653700
 3293.180000   13042.520400
 3294.890000   13076.520400
 3296.610000   13002.553700
 3298.320000   13079.253700
 3300.030000   13000.253700
 3301.750000   13062.653700
 3303.460000   12907.120400
 3305.170000   12904.953700
 3306.880000   12967.520400
 3308.590000   12873.053700
 3310.300000   12924.553700
 3312.010000   12801.320400
 3313.720000   12822.253700
 3315.430000   12822.287000
 3317.140000   12765.520400
 3318.840000   12810.687000
 3320.550000   12737.253700
 3322.260000   12723.587000
 3323.960000   12762.520400
 3325.670000   12655.253700
 3327.370000   12681.820400
 3329.070000   12626.020400
 3330.770000   12640.220400
 3332.480000   12630.153700
 3334.180000   12607.687000
 3335.880000   12563.020400
 3337.580000   12546.053700
 3339.280000   12568.120400
 3340.980000   12554.820400
 3342.670000   12539.320400
 3344.370000   12484.820400
 3346.070000   12419.720400
 3347.760000   12434.487000
 3349.460000   12428.220400
 3351.150000   12434.520400
 3352.850000   12361.820400
 3354.540000   12404.220400
 3356.230000   12318.820400
 3357.920000   12347.220400
 3359.620000   12274.987000
 3361.310000   12301.153700
 3363.000000   12267.553700
 3364.690000   12249.920400
 3366.380000   12229.453700
 3368.060000   12185.520400
 3369.750000   12237.553700
 3371.440000   12123.920400
 3373.130000   12230.587000
 3374.810000   12075.453700
 3376.500000   12058.353700
 3378.180000   12101.153700
 3379.860000   12116.887000
 3381.550000   12080.853700
 3383.230000   11993.287000
 3384.910000   12108.120400
 3386.590000   12026.787000
 3388.270000   12023.053700
 3389.950000   12044.920400
 3391.630000   12012.720400
 3393.310000   11936.853700
 3394.990000   12023.587000
 3396.670000   11935.920400
 3398.350000   11901.453700
 3400.020000   11967.687000
 3401.700000   11856.920400
 3403.370000   11962.187000
 3405.050000   11845.953700
 3406.720000   11811.387000
 3408.390000   11856.887000
 3410.070000   11810.253700
 3411.740000   11767.053700
 3413.410000   11817.387000
 3415.080000   11793.420400
 3416.750000   11729.087000
 3418.420000   11748.853700
 3420.090000   11737.120400
 3421.760000   11680.753700
 3423.420000   11646.287000
 3425.090000   11680.820400
 3426.760000   11713.153700
 3428.420000   11648.920400
 3430.090000   11602.520400
 3431.750000   11642.387000
 3433.420000   11582.087000
 3435.080000   11528.120400
 3436.740000   11652.553700
 3438.400000   11589.787000
 3440.060000   11496.387000
 3441.720000   11628.253700
 3443.380000   11551.120400
 3445.040000   11557.787000
 3446.700000   11518.420400
 3448.360000   11487.487000
 3450.020000   11464.687000
 3451.670000   11456.620400
 3453.330000   11502.153700
 3454.990000   11450.320400
 3456.640000   11356.787000
 3458.300000   11393.020400
 3459.950000   11385.753700
 3461.600000   11358.787000
 3463.250000   11319.253700
 3464.910000   11351.820400
 3466.560000   11259.820400
 3468.210000   11296.953700
 3469.860000   11289.387000
 3471.510000   11238.787000
 3473.160000   11209.220400
 3474.800000   11268.787000
 3476.450000   11180.953700
 3478.100000   11250.120400
 3479.740000   11185.920400
 3481.390000   11128.220400
 3483.040000   11206.387000
 3484.680000   11110.653700
 3486.320000   11184.820400
 3487.970000   11112.220400
 3489.610000   11111.520400
 3491.250000   11137.687000
 3492.890000   11181.620400
 3494.530000   11082.620400
 3496.170000   11046.753700
 3497.810000   11029.453700
 3499.450000   11035.820400
 3501.090000   11054.287000
 3502.730000   10933.853700
 3504.360000   11001.087000
 3506.000000   10959.987000
 3507.640000   10968.953700
 3509.270000   10930.353700
 3510.900000   10942.420400
 3512.540000   10961.553700
 3514.170000   10947.887000
 3515.800000   10964.653700
 3517.440000   10797.387000
 3519.070000   10878.820400
 3520.700000   10771.787000
 3522.330000   10847.253700
 3523.960000   10775.453700
 3525.590000   10850.853700
 3527.210000   10734.853700
 3528.840000   10822.987000
 3530.470000   10776.820400
 3532.100000   10751.853700
 3533.720000   10752.153700
 3535.350000   10741.187000
 3536.970000   10730.353700
 3538.600000   10727.520400
 3540.220000   10678.353700
 3541.840000   10647.420400
 3543.460000   10691.587000
 3545.080000   10658.753700
 3546.710000   10683.420400
 3548.330000   10632.020400
 3549.950000   10682.487000
 3551.560000   10599.953700
 3553.180000   10616.353700
 3554.800000   10522.420400
 3556.420000   10639.453700
 3558.030000   10625.587000
 3559.650000   10589.887000
 3561.270000   10562.120400
 3562.880000   10569.687000
 3564.490000   10556.153700
 3566.110000   10568.220400
 3567.720000   10577.820400
 3569.330000   10593.820400
 3570.940000   10594.953700
 3572.560000   10548.653700
 3574.170000   10584.353700
 3575.780000   10536.520400
 3577.390000   10546.420400
 3578.990000   10497.187000
 3580.600000   10504.620400
 3582.210000   10577.220400
 3583.820000   10445.820400
 3585.420000   10598.953700
 3587.030000   10536.087000
 3588.630000   10515.953700
 3590.240000   10484.720400
 3591.840000   10642.187000
 3593.440000   10554.220400
 3595.050000   10557.387000
 3596.650000   10550.553700
 3598.250000   10531.220400
 3599.850000   10618.187000
 3601.450000   10519.887000
 3603.050000   10576.553700
 3604.650000   10567.920400
 3606.250000   10635.887000
 3607.840000   10616.820400
 3609.440000   10529.720400
 3611.040000   10568.653700
 3612.630000   10572.620400
 3614.230000   10629.453700
 3615.820000   10511.487000
 3617.420000   10555.220400
 3619.010000   10527.887000
 3620.600000   10578.053700
 3622.190000   10520.320400
 3623.790000   10563.887000
 3625.380000   10540.020400
 3626.970000   10539.920400
 3628.560000   10487.220400
 3630.150000   10543.320400
 3631.730000   10480.420400
 3633.320000   10558.920400
 3634.910000   10525.187000
 3636.500000   10476.753700
 3638.080000   10451.287000
 3639.670000   10450.253700
 3641.250000   10475.120400
 3642.840000   10566.320400
 3644.420000   10446.920400
 3646.000000   10415.920400
 3647.590000   10396.787000
 3649.170000   10383.987000
 3650.750000   10377.253700
 3652.330000   10358.687000
 3653.910000   10344.653700
 3655.490000   10324.620400
 3657.070000   10319.920400
 3658.650000   10319.953700
 3660.220000   10292.787000
 3661.800000   10202.820400
 3663.380000   10247.820400
 3664.950000   10180.453700
 3666.530000   10170.953700
 3668.100000   10155.420400
 3669.680000   10118.420400
 3671.250000   10139.620400
 3672.820000   10161.353700
 3674.400000   10192.587000
 3675.970000   10143.287000
 3677.540000   10097.353700
 3679.110000    9975.120400
 3680.680000   10063.920400
 3682.250000   10001.320400
 3683.820000    9942.420400
 3685.380000    9920.487000
 3686.950000    9882.320400
 3688.520000    9883.287000
 3690.080000    9859.687000
 3691.650000    9852.020400
 3693.210000    9863.053700
 3694.780000    9830.520400
 3696.340000    9802.487000
 3697.910000    9816.253700
 3699.470000    9693.587000
 3701.030000    9742.620400
 3702.590000    9758.320400
 3704.150000    9731.687000
 3705.710000    9711.753700
 3707.270000    9779.187000
 3708.830000    9693.520400
 3710.390000    9622.220400
 3711.950000    9646.820400
 3713.510000    9761.053700
 3715.060000    9620.853700
 3716.620000    9663.853700
 3718.170000    9625.053700
 3719.730000    9572.987000
 3721.280000    9563.920400
 3722.840000    9595.187000
 3724.390000    9551.087000
 3725.940000    9572.953700
 3727.490000    9525.087000
 3729.040000    9584.620400
 3730.600000    9520.387000
 3732.150000    9511.920400
 3733.690000    9537.820400
 3735.240000    9413.620400
 3736.790000    9519.153700
 3738.340000    9468.753700
 3739.890000    9496.620400
 3741.430000    9491.653700
 3742.980000    9494.487000
 3744.520000    9389.287000
 3746.070000    9476.687000
 3747.610000    9490.520400
 3749.160000    9442.420400
 3750.700000    9464.853700
 3752.240000    9406.720400
 3753.780000    9444.387000
 3755.320000    9439.853700
 3756.870000    9422.953700
 3758.410000    9454.120400
 3759.940000    9377.920400
 3761.480000    9414.853700
 3763.020000    9350.753700
 3764.560000    9422.687000
 3766.100000    9415.353700
 3767.630000    9354.587000
 3769.170000    9406.420400
 3770.700000    9391.220400
 3772.240000    9376.453700
 3773.770000    9304.453700
 3775.310000    9381.420400
 3776.840000    9351.187000
 3778.370000    9374.053700
 3779.900000    9387.587000
 3781.430000    9291.687000
 3782.960000    9401.220400
 3784.490000    9414.387000
 3786.020000    9397.387000
 3787.550000    9425.753700
 3789.080000    9363.487000
 3790.610000    9344.220400
 3792.140000    9317.087000
 3793.660000    9415.620400
 3795.190000    9419.653700
 3796.710000    9341.987000
 3798.240000    9413.687000
 3799.760000    9434.820400
 3801.280000    9430.020400
 3802.810000    9380.220400
 3804.330000    9458.387000
 3805.850000    9357.520400
 3807.370000    9451.953700
 3808.890000    9398.120400
 3810.410000    9415.320400
 3811.930000    9391.487000
 3813.450000    9422.620400
 3814.970000    9437.453700
 3816.490000    9499.820400
 3818.000000    9457.453700
 3819.520000    9395.920400
 3821.040000    9479.420400
 3822.550000    9516.887000
 3824.070000    9471.187000
 3825.580000    9538.420400
 3827.090000    9514.520400
 3828.610000    9513.253700
 3830.120000    9493.753700
 3831.630000    9510.387000
 3833.140000    9497.753700
 3834.650000    9495.120400
 3836.160000    9434.753700
 3837.670000    9557.587000
 3839.180000    9540.120400
 3840.690000    9518.553700
 3842.200000    9487.053700
 3843.700000    9540.320400
 3845.210000    9531.153700
 3846.720000    9478.953700
 3848.220000    9491.520400
 3849.730000    9469.920400
 3851.230000    9518.187000
 3852.730000    9443.120400
 3854.240000    9553.120400
 3855.740000    9441.353700
 3857.240000    9452.320400
 3858.740000    9470.953700
 3860.240000    9485.920400
 3861.740000    9353.653700
 3863.240000    9430.020400
 3864.740000    9429.453700
 3866.240000    9447.920400
 3867.740000    9368.953700
 3869.230000    9340.087000
 3870.730000    9521.553700
 3872.230000    9343.887000
 3873.720000    9312.287000
 3875.220000    9322.420400
 3876.710000    9317.320400
 3878.210000    9245.987000
 3879.700000    9301.887000
 3881.190000    9362.253700
 3882.680000    9255.420400
 3884.170000    9237.787000
 3885.660000    9233.820400
 3887.160000    9234.887000
 3888.640000    9173.753700
 3890.130000    9187.020400
 3891.620000    9130.320400
 3893.110000    9085.387000
 3894.600000    9084.587000
 3896.080000    9051.487000
 3897.570000    8979.453700
 3899.060000    9017.820400
 3900.540000    8949.120400
 3902.030000    8931.387000
 3903.510000    8929.987000
 3904.990000    8926.453700
 3906.480000    8946.187000
 3907.960000    8829.020400
 3909.440000    8804.487000
 3910.920000    8829.787000
 3912.400000    8786.787000
 3913.880000    8806.853700
 3915.360000    8778.120400
 3916.840000    8714.387000
 3918.320000    8620.620400
 3919.790000    8629.087000
 3921.270000    8667.020400
 3922.750000    8624.820400
 3924.220000    8606.953700
 3925.700000    8563.387000
 3927.170000    8526.553700
 3928.650000    8555.220400
 3930.120000    8425.787000
 3931.590000    8455.253700
 3933.070000    8484.020400
 3934.540000    8403.187000
 3936.010000    8375.120400
 3937.480000    8354.853700
 3938.950000    8323.353700
 3940.420000    8388.253700
 3941.890000    8329.687000
 3943.360000    8348.320400
 3944.820000    8230.553700
 3946.290000    8259.987000
 3947.760000    8227.853700
 3949.220000    8211.420400
 3950.690000    8184.387000
 3952.150000    8142.453700
 3953.620000    8138.087000
 3955.080000    8131.353700
 3956.550000    8146.653700
 3958.010000    8132.153700
 3959.470000    8143.887000
 3960.930000    8077.687000
 3962.390000    8132.287000
 3963.850000    8075.153700
 3965.310000    8088.820400
 3966.770000    8088.420400
 3968.230000    8117.287000
 3969.690000    8004.720400
 3971.150000    8093.753700
 3972.600000    8038.720400
 3974.060000    8039.120400
 3975.510000    7999.187000
 3976.970000    8067.620400
 3978.420000    8049.453700
 3979.880000    8007.587000
 3981.330000    8051.320400
 3982.780000    7980.487000
 3984.240000    8011.720400
 3985.690000    7956.287000
 3987.140000    8037.420400
 3988.590000    8018.420400
 3990.040000    8006.287000
 3991.490000    7971.620400
 3992.940000    7951.987000
 3994.390000    7931.553700
 3995.840000    7905.220400
 3997.280000    7923.253700
 3998.730000    7882.053700
 4000.180000    7857.220400
 4001.620000    7819.987000
 4003.070000    7883.087000
#